Folder: Firmware-espressoCharge/cycleData

Note: README.md
# PCB-Power-60W-Single-Port-USB-C-Powerbank-5S2P

This is a 6-layer board designed to be a single USB-C Port power bank-like board, capable of having 5s lithium-ion battery packs, and supplying up to 60W. It can also report battery level over an FTDI (Serial communication). Additionally, it features a Power Delivery (PD) chip and a charger chip for USB-C PD power negotiation.

## Key Components
- TPS257550 PD Controller from Texas Instruments
- BQ25731 Charge Controller from Texas Instruments
- STM32F030F4 MCU from ST

## System Details
- Operating System: FreeRTOS Kernel

## Images

<div align="center">
    <img src="Images/FrontVolta.png" width="500" alt="Image 1">
</div>

<div align="center">
    <img src="Images/FrontD17+MG3+Volta.png" width="500" alt="Image 2">
</div>

<div align="center">
    <img src="Images/HeroRearD17+MG3+Volta_V.png" width="500" alt="Image 3">
</div>

File: battery_data_Processed.csv
Time,BatteryVoltage (mV),BatteryVoltage (V),BatteryCurrent (mA),BatteryCurrent (A),Temperature (C),RemainingCapacity (mAh),RemainingCapacity (Ah),FullCapacity (mAh),TimeToEmpty (min),TimeToEmpty (hrs),TimeToFull (min),TimeToFull (hrs),SOC (%),SOH (%)
14:34:17,15475,15.475,0,0.0,26.65,0,0.0,5119,65535,1092.25,65535,1092.25,0,84
14:36:16,16785,16.785,1669,1.669,31.65,0,0.0,5113,65535,1092.25,252,4.2,0,84
14:38:15,17150,17.15,1636,1.636,34.75,0,0.0,5113,65535,1092.25,254,4.23333,0,84
14:40:14,17400,17.4,1611,1.611,36.35,0,0.0,5113,65535,1092.25,254,4.23333,0,84
14:42:12,17490,17.49,1603,1.603,37.15,0,0.0,5113,65535,1092.25,254,4.23333,0,84
14:44:11,17530,17.53,1598,1.598,37.75,8,0.008,5113,65535,1092.25,252,4.2,1,84
14:46:10,17580,17.58,1597,1.597,38.15,61,0.061,5113,65535,1092.25,250,4.16667,2,84
14:48:09,17620,17.62,1591,1.591,38.35,113,0.113,5113,65535,1092.25,249,4.15,3,84
14:50:07,17665,17.665,1588,1.588,38.55,165,0.165,5113,65535,1092.25,247,4.11667,4,84
14:52:06,17705,17.705,1585,1.585,38.75,218,0.218,5113,65535,1092.25,246,4.1,5,84
14:54:05,17740,17.74,1581,1.581,38.95,270,0.27,5114,65535,1092.25,244,4.06667,6,84
14:56:04,17780,17.78,1578,1.578,39.15,322,0.322,5113,65535,1092.25,242,4.03333,7,84
14:58:02,17820,17.82,1575,1.575,39.15,374,0.374,5114,65535,1092.25,241,4.01667,8,84
15:00:01,17860,17.86,1571,1.571,39.25,426,0.426,5114,65535,1092.25,239,3.98333,9,84
15:02:00,17910,17.91,1567,1.567,39.25,477,0.477,5113,65535,1092.25,238,3.96667,10,84
15:03:59,17955,17.955,1562,1.562,39.25,529,0.529,5114,65535,1092.25,236,3.93333,11,84
15:05:58,18005,18.005,1559,1.559,39.45,580,0.58,5113,65535,1092.25,235,3.91667,12,84
15:07:56,18055,18.055,1553,1.553,39.35,631,0.631,5113,65535,1092.25,233,3.88333,13,84
15:09:55,18100,18.1,1551,1.551,39.45,683,0.683,5114,65535,1092.25,231,3.85,14,84
15:11:54,18140,18.14,1545,1.545,39.35,733,0.733,5113,65535,1092.25,230,3.83333,15,84
15:13:53,18180,18.18,1544,1.544,39.35,784,0.784,5113,65535,1092.25,228,3.8,16,84
15:15:51,18210,18.21,1540,1.54,39.35,835,0.835,5113,65535,1092.25,227,3.78333,17,84
15:17:50,18235,18.235,1538,1.538,39.35,886,0.886,5113,65535,1092.25,225,3.75,18,84
15:19:49,18265,18.265,1535,1.535,39.25,936,0.936,5113,65535,1092.25,223,3.71667,19,84
15:21:48,18295,18.295,1534,1.534,39.35,987,0.987,5113,65535,1092.25,221,3.68333,20,84
15:23:47,18320,18.32,1531,1.531,39.45,1037,1.037,5113,65535,1092.25,220,3.66667,21,84
15:25:45,18345,18.345,1529,1.529,39.45,1088,1.088,5113,65535,1092.25,218,3.63333,22,84
15:27:44,18370,18.37,1526,1.526,39.05,1138,1.138,5113,65535,1092.25,216,3.6,23,84
15:29:43,18400,18.4,1524,1.524,39.05,1188,1.188,5113,65535,1092.25,214,3.56667,24,84
15:31:42,18425,18.425,1527,1.527,39.15,1238,1.238,5113,65535,1092.25,212,3.53333,25,84
15:33:40,18455,18.455,1525,1.525,39.05,1289,1.289,5114,65535,1092.25,210,3.5,26,84
15:35:39,18480,18.48,1524,1.524,38.95,1339,1.339,5114,65535,1092.25,208,3.46667,27,84
15:37:38,18510,18.51,1524,1.524,38.55,1389,1.389,5113,65535,1092.25,206,3.43333,28,84
15:39:37,18535,18.535,1523,1.523,38.35,1439,1.439,5113,65535,1092.25,205,3.41667,29,84
15:41:35,18565,18.565,1523,1.523,38.55,1489,1.489,5113,65535,1092.25,203,3.38333,30,84
15:43:34,18590,18.59,1522,1.522,38.25,1539,1.539,5113,65535,1092.25,201,3.35,31,84
15:45:33,18620,18.62,1520,1.52,38.15,1589,1.589,5113,65535,1092.25,199,3.31667,32,84
15:47:32,18645,18.645,1517,1.517,37.85,1639,1.639,5113,65535,1092.25,197,3.28333,33,84
15:49:31,18670,18.67,1514,1.514,37.55,1689,1.689,5113,65535,1092.25,195,3.25,34,84
15:51:29,18700,18.7,1507,1.507,37.65,1738,1.738,5113,65535,1092.25,194,3.23333,34,84
15:53:28,18725,18.725,1505,1.505,38.15,1788,1.788,5113,65535,1092.25,192,3.2,35,84
15:55:27,18750,18.75,1506,1.506,38.05,1838,1.838,5114,65535,1092.25,190,3.16667,36,84
15:57:26,18780,18.78,1502,1.502,37.75,1887,1.887,5113,65535,1092.25,188,3.13333,37,84
15:59:24,18810,18.81,1499,1.499,37.75,1936,1.936,5113,65535,1092.25,187,3.11667,38,84
16:01:23,18835,18.835,1496,1.496,38.15,1986,1.986,5114,65535,1092.25,185,3.08333,39,84
16:03:22,18865,18.865,1495,1.495,38.45,2035,2.035,5113,65535,1092.25,183,3.05,40,84
16:05:21,18900,18.9,1492,1.492,38.65,2084,2.084,5113,65535,1092.25,181,3.01667,41,84
16:07:19,18925,18.925,1493,1.493,38.55,2133,2.133,5113,65535,1092.25,179,2.98333,42,84
16:09:18,18960,18.96,1493,1.493,38.25,2182,2.182,5113,65535,1092.25,177,2.95,43,84
16:11:17,18995,18.995,1492,1.492,38.05,2231,2.231,5113,65535,1092.25,175,2.91667,44,84
16:13:16,19030,19.03,1490,1.49,37.75,2280,2.28,5113,65535,1092.25,174,2.9,45,84
16:15:14,19070,19.07,1482,1.482,37.55,2329,2.329,5113,65535,1092.25,172,2.86667,46,84
16:17:13,19110,19.11,1477,1.477,37.65,2378,2.378,5114,65535,1092.25,170,2.83333,47,84
16:19:12,19145,19.145,1474,1.474,37.75,2426,2.426,5113,65535,1092.25,169,2.81667,48,84
16:21:11,19185,19.185,1470,1.47,38.05,2475,2.475,5114,65535,1092.25,167,2.78333,49,84
16:23:10,19230,19.23,1467,1.467,37.95,2523,2.523,5113,65535,1092.25,165,2.75,50,84
16:25:08,19270,19.27,1468,1.468,38.05,2571,2.571,5113,65535,1092.25,163,2.71667,51,84
16:27:07,19315,19.315,1467,1.467,37.75,2619,2.619,5113,65535,1092.25,161,2.68333,52,84
16:29:06,19355,19.355,1463,1.463,37.55,2668,2.668,5114,65535,1092.25,159,2.65,53,84
16:31:05,19405,19.405,1462,1.462,37.65,2715,2.715,5113,65535,1092.25,158,2.63333,54,84
16:33:03,19445,19.445,1459,1.459,37.25,2763,2.763,5113,65535,1092.25,156,2.6,55,84
16:35:02,19490,19.49,1456,1.456,37.25,2812,2.812,5114,65535,1092.25,154,2.56667,55,84
16:37:01,19530,19.53,1452,1.452,37.05,2859,2.859,5113,65535,1092.25,152,2.53333,56,84
16:39:00,19575,19.575,1447,1.447,36.85,2907,2.907,5114,65535,1092.25,150,2.5,57,84
16:40:58,19615,19.615,1441,1.441,36.85,2954,2.954,5113,65535,1092.25,149,2.48333,58,84
16:42:57,19655,19.655,1438,1.438,37.05,3002,3.002,5114,65535,1092.25,147,2.45,59,84
16:44:56,19700,19.7,1433,1.433,37.15,3049,3.049,5114,65535,1092.25,145,2.41667,60,84
16:46:55,19735,19.735,1430,1.43,37.05,3096,3.096,5114,65535,1092.25,143,2.38333,61,84
16:48:53,19775,19.775,1433,1.433,37.15,3143,3.143,5113,65535,1092.25,141,2.35,62,84
16:50:52,19815,19.815,1430,1.43,36.55,3190,3.19,5113,65535,1092.25,139,2.31667,63,84
16:52:51,19850,19.85,1423,1.423,36.55,3237,3.237,5114,65535,1092.25,138,2.3,64,84
16:54:50,19890,19.89,1422,1.422,37.05,3283,3.283,5113,65535,1092.25,136,2.26667,65,84
16:56:49,19925,19.925,1418,1.418,36.95,3330,3.33,5113,65535,1092.25,134,2.23333,66,84
16:58:47,19955,19.955,1412,1.412,37.05,3376,3.376,5113,65535,1092.25,132,2.2,67,84
17:00:46,19995,19.995,1410,1.41,37.25,3423,3.423,5114,65535,1092.25,130,2.16667,67,84
17:02:45,20030,20.03,1408,1.408,37.05,3469,3.469,5113,65535,1092.25,129,2.15,68,84
17:04:44,20065,20.065,1411,1.411,37.05,3515,3.515,5113,65535,1092.25,127,2.11667,69,84
17:06:42,20100,20.1,1405,1.405,37.05,3562,3.562,5114,65535,1092.25,124,2.06667,70,84
17:08:41,20135,20.135,1403,1.403,36.95,3608,3.608,5114,65535,1092.25,120,2.0,71,84
17:10:40,20175,20.175,1396,1.396,36.65,3654,3.654,5113,65535,1092.25,116,1.93333,72,84
17:12:39,20220,20.22,1398,1.398,36.95,3700,3.7,5114,65535,1092.25,111,1.85,73,84
17:14:37,20255,20.255,1391,1.391,37.05,3745,3.745,5113,65535,1092.25,107,1.78333,74,84
17:16:36,20295,20.295,1384,1.384,36.95,3791,3.791,5113,65535,1092.25,103,1.71667,75,84
17:18:35,20340,20.34,1385,1.385,37.05,3837,3.837,5114,65535,1092.25,99,1.65,76,84
17:20:34,20385,20.385,1381,1.381,36.95,3882,3.882,5113,65535,1092.25,95,1.58333,76,84
17:22:33,20435,20.435,1380,1.38,36.85,3927,3.927,5113,65535,1092.25,90,1.5,77,84
17:24:31,20480,20.48,1378,1.378,36.45,3973,3.973,5113,65535,1092.25,86,1.43333,78,84
17:26:30,20530,20.53,1373,1.373,36.05,4018,4.018,5113,65535,1092.25,82,1.36667,79,84
17:28:29,20570,20.57,1364,1.364,36.05,4063,4.063,5113,65535,1092.25,78,1.3,80,84
17:30:28,20615,20.615,1361,1.361,35.95,4108,4.108,5113,65535,1092.25,74,1.23333,81,84
17:32:26,20660,20.66,1359,1.359,36.25,4153,4.153,5113,65535,1092.25,69,1.15,82,84
17:34:25,20700,20.7,1355,1.355,36.45,4197,4.197,5113,65535,1092.25,65,1.08333,83,84
17:36:24,20740,20.74,1353,1.353,36.35,4242,4.242,5114,65535,1092.25,61,1.01667,83,84
17:38:23,20785,20.785,1350,1.35,36.25,4286,4.286,5113,65535,1092.25,57,0.95,84,84
17:40:22,20820,20.82,1348,1.348,36.35,4331,4.331,5114,65535,1092.25,52,0.866667,85,84
17:42:20,20850,20.85,1346,1.346,36.45,4375,4.375,5114,65535,1092.25,48,0.8,86,84
17:44:19,20875,20.875,1343,1.343,36.55,4419,4.419,5113,65535,1092.25,43,0.716667,87,84
17:46:18,20900,20.9,1341,1.341,36.45,4463,4.463,5113,65535,1092.25,39,0.65,88,84
17:48:17,20925,20.925,1341,1.341,36.45,4507,4.507,5113,65535,1092.25,35,0.583333,89,84
17:50:15,20945,20.945,1338,1.338,36.35,4551,4.551,5113,65535,1092.25,30,0.5,90,84
17:52:14,20960,20.96,1338,1.338,36.55,4595,4.595,5113,65535,1092.25,26,0.433333,90,84
17:54:13,20980,20.98,1336,1.336,36.55,4639,4.639,5113,65535,1092.25,22,0.366667,91,84
17:56:12,20980,20.98,1272,1.272,36.35,4682,4.682,5113,65535,1092.25,18,0.3,92,84
17:58:10,20985,20.985,1216,1.216,36.25,4723,4.723,5113,65535,1092.25,14,0.233333,93,84
18:00:09,20985,20.985,1163,1.163,36.15,4762,4.762,5113,65535,1092.25,10,0.166667,94,84
18:02:08,20985,20.985,1107,1.107,35.75,4799,4.799,5113,65535,1092.25,6,0.1,94,84
18:04:07,20985,20.985,1053,1.053,35.65,4835,4.835,5113,65535,1092.25,2,0.0333333,95,84
18:06:05,20985,20.985,994,0.994,35.35,4869,4.869,5113,65535,1092.25,0,0.0,96,84
18:08:04,20985,20.985,937,0.937,35.25,4901,4.901,5114,65535,1092.25,0,0.0,96,84
18:10:03,20990,20.99,875,0.875,35.05,4931,4.931,5114,65535,1092.25,0,0.0,97,84
18:12:02,20990,20.99,814,0.814,35.05,4958,4.958,5113,65535,1092.25,0,0.0,97,84
18:14:01,20990,20.99,753,0.753,34.75,4984,4.984,5113,65535,1092.25,0,0.0,98,84
18:15:59,20990,20.99,694,0.694,34.65,5008,5.008,5113,65535,1092.25,0,0.0,98,84
18:17:58,20995,20.995,636,0.636,34.55,5030,5.03,5113,65535,1092.25,0,0.0,99,84
18:19:57,20995,20.995,578,0.578,34.25,5050,5.05,5113,65535,1092.25,0,0.0,99,84
18:21:56,20995,20.995,525,0.525,33.95,5068,5.068,5113,65535,1092.25,0,0.0,100,84
18:23:54,20995,20.995,473,0.473,34.15,5085,5.085,5114,65535,1092.25,0,0.0,100,84
18:25:53,20995,20.995,427,0.427,34.25,5100,5.1,5114,65535,1092.25,0,0.0,100,84
18:27:52,20995,20.995,385,0.385,33.95,5113,5.113,5113,65535,1092.25,0,0.0,100,84
18:28:58,20995,20.995,362,0.362,33.95,5113,5.113,5113,65535,1092.25,0,0.0,100,84